Date and Time:                Wed May 29 12:22:20.528 2024
Software Version:             4.30.30034.0
Temperature (C):              -35
Model:                        DU401_BVF
Data Type:                    Counts (Bg Corrected)
Acquisition Mode:             Accumulate
Trigger Mode:                 Internal
Exposure Time (secs):         0.05001
Accumulate Cycle Time (secs): 0.31251
Frequency (Hz):               3.1999
Number of Accumulations:      5
Readout Mode:                 Full Vertical Binning
Horizontal binning:           1
Extended Dynamic Range:       off
Horizontally flipped:         false
Vertical Shift Speed (usecs): 16.25
Pixel Readout Time (usecs):   10
Serial Number:                24210
Pre-Amplifier Gain:           1.7x
Spurious Noise Filter Mode:   No Filter
Photon counted:               false
Data Averaging Filter Mode:   No Filter
DongWooDM500i:
Serial Number:                
Wavelength (nm):              567
Grating Groove Density (l/mm):1200



547.21796,57
547.2569,52
547.29584,57
547.33478,58
547.37372,48
547.41266,50
547.4516,49
547.49054,61
547.52948,64
547.56842,48
547.60736,49
547.64636,53
547.6853,54
547.72418,56
547.76312,61
547.80206,54
547.841,53
547.87994,58
547.91888,56
547.95782,64
547.99677,55
548.03571,53
548.07465,58
548.11359,53
548.15247,59
548.19141,50
548.23035,52
548.26929,60
548.30817,47
548.34711,57
548.38605,58
548.42499,58
548.46387,59
548.50281,55
548.54175,57
548.58063,53
548.61957,58
548.65851,68
548.69739,59
548.73633,59
548.77527,63
548.81415,65
548.85309,61
548.89197,62
548.93091,62
548.96979,68
549.00873,70
549.04761,71
549.08655,65
549.12543,65
549.16437,62
549.20325,66
549.24219,65
549.28107,61
549.31995,62
549.35889,59
549.39777,63
549.43665,65
549.47559,66
549.51447,61
549.55334,59
549.59229,65
549.63116,60
549.67004,66
549.70892,68
549.74786,64
549.78674,79
549.82562,74
549.8645,69
549.90338,62
549.94226,65
549.9812,65
550.02008,73
550.05896,65
550.09784,53
550.13672,60
550.1756,55
550.21448,68
550.25336,56
550.29224,60
550.33112,65
550.37,66
550.40887,63
550.44775,63
550.48663,64
550.52551,61
550.56439,70
550.60327,56
550.64215,65
550.68103,70
550.71985,68
550.75873,67
550.79761,65
550.83649,68
550.87537,62
550.91418,67
550.95306,66
550.99194,65
551.03082,73
551.06964,66
551.10852,63
551.1474,62
551.18628,77
551.2251,74
551.26398,65
551.3028,66
551.34167,67
551.38055,69
551.41937,72
551.45825,74
551.49707,68
551.53595,65
551.57477,72
551.61365,76
551.65247,74
551.69135,78
551.73016,74
551.76904,76
551.80786,69
551.84674,68
551.88556,72
551.92444,78
551.96326,84
552.00208,75
552.04095,61
552.07977,76
552.11859,70
552.15747,68
552.19629,74
552.23511,72
552.27393,83
552.31281,74
552.35162,72
552.39044,78
552.42926,78
552.46808,73
552.50696,76
552.54578,66
552.58459,84
552.62341,77
552.66223,78
552.70105,79
552.73987,74
552.77869,80
552.8175,62
552.85632,67
552.89514,82
552.93396,71
552.97278,73
553.0116,70
553.05042,75
553.08923,78
553.12805,73
553.16687,80
553.20569,71
553.24451,82
553.28333,72
553.32214,73
553.3609,73
553.39972,73
553.43854,73
553.47736,72
553.51617,79
553.55493,70
553.59375,85
553.63257,76
553.67139,82
553.71014,78
553.74896,76
553.78778,77
553.82654,79
553.86536,83
553.90417,78
553.94293,75
553.98175,79
554.02051,75
554.05933,76
554.09808,82
554.1369,81
554.17566,80
554.21448,73
554.25323,82
554.29205,79
554.33081,78
554.36963,85
554.40839,80
554.4472,86
554.48596,81
554.52472,84
554.56354,86
554.60229,82
554.64105,82
554.67987,79
554.71863,81
554.75739,85
554.7962,83
554.83496,81
554.87372,80
554.91248,89
554.95129,82
554.99005,92
555.02881,84
555.06757,83
555.10632,81
555.14508,88
555.18384,82
555.22266,77
555.26141,79
555.30017,83
555.33893,85
555.37769,90
555.41644,81
555.4552,85
555.49396,83
555.53271,91
555.57147,95
555.61023,90
555.64899,81
555.68768,86
555.72644,81
555.7652,85
555.80396,87
555.84271,90
555.88147,84
555.92023,87
555.95892,82
555.99768,79
556.03644,90
556.0752,85
556.11395,84
556.15265,89
556.19141,89
556.23016,81
556.26886,86
556.30762,92
556.34637,92
556.38507,85
556.42383,90
556.46252,97
556.50128,88
556.54004,92
556.57874,92
556.61749,94
556.65619,89
556.69495,97
556.73364,95
556.7724,91
556.8111,92
556.84985,89
556.88855,94
556.92731,92
556.966,88
557.0047,98
557.04346,96
557.08215,92
557.12085,95
557.15961,92
557.1983,95
557.237,96
557.27576,102
557.31445,91
557.35315,89
557.39185,87
557.43054,94
557.4693,99
557.508,94
557.54669,89
557.58539,90
557.62408,86
557.66278,89
557.70148,97
557.74023,85
557.77893,99
557.81763,87
557.85632,90
557.89502,93
557.93372,94
557.97241,86
558.01111,97
558.0498,102
558.0885,92
558.1272,91
558.16583,95
558.20453,94
558.24323,101
558.28192,90
558.32062,93
558.35931,92
558.39801,88
558.43665,90
558.47534,96
558.51404,102
558.55273,94
558.59137,96
558.63007,95
558.66876,102
558.70746,98
558.74609,86
558.78479,96
558.82349,88
558.86212,95
558.90082,90
558.93945,97
558.97815,99
559.01678,100
559.05548,98
559.09418,95
559.13281,98
559.17151,97
559.21014,91
559.24884,89
559.28748,98
559.32611,103
559.36481,98
559.40344,93
559.44214,93
559.48077,95
559.51941,87
559.55811,92
559.59674,98
559.63538,98
559.67407,103
559.71271,88
559.75134,97
559.78998,93
559.82867,99
559.86731,89
559.90594,95
559.94458,88
559.98322,93
560.02185,92
560.06055,102
560.09918,92
560.13782,97
560.17645,96
560.21509,89
560.25372,109
560.29236,102
560.33099,96
560.36963,96
560.40826,92
560.4469,98
560.48553,84
560.52417,94
560.56281,99
560.60144,105
560.64008,99
560.67865,102
560.71729,107
560.75592,92
560.79456,100
560.83319,102
560.87183,94
560.9104,101
560.94904,98
560.98767,99
561.02631,103
561.06488,96
561.10352,100
561.14215,99
561.18073,90
561.21936,96
561.258,96
561.29657,104
561.33521,98
561.37378,97
561.41241,97
561.45099,100
561.48962,91
561.52826,99
561.56683,93
561.60547,82
561.64404,98
561.68262,99
561.72125,98
561.75983,96
561.79846,105
561.83704,98
561.87561,106
561.91425,102
561.95282,92
561.99139,102
562.03003,100
562.0686,97
562.10718,97
562.14581,104
562.18439,103
562.22296,97
562.26154,96
562.30011,100
562.33875,91
562.37732,95
562.41589,105
562.45447,93
562.49304,91
562.53162,101
562.57019,96
562.60876,101
562.64734,96
562.68591,94
562.72449,89
562.76306,109
562.80164,99
562.84021,90
562.87878,89
562.91736,98
562.95593,98
562.99451,100
563.03308,99
563.07166,95
563.11023,101
563.14874,103
563.18732,91
563.22589,101
563.26447,104
563.30304,94
563.34155,91
563.38013,95
563.4187,98
563.45721,107
563.49579,98
563.53436,91
563.57288,108
563.61145,97
563.65002,101
563.68854,97
563.72711,99
563.76563,93
563.8042,100
563.84271,103
563.88129,92
563.9198,104
563.95837,103
563.99689,95
564.03546,89
564.07397,98
564.11255,95
564.15106,103
564.18958,99
564.22815,111
564.26666,100
564.30518,100
564.34375,100
564.38226,99
564.42078,100
564.45935,98
564.49786,98
564.53638,99
564.57489,105
564.61346,101
564.65198,100
564.69049,96
564.729,99
564.76752,93
564.80603,103
564.84454,99
564.88306,95
564.92157,96
564.96014,95
564.99866,103
565.03717,106
565.07568,90
565.1142,103
565.15271,98
565.19116,97
565.22968,101
565.26819,99
565.3067,101
565.34521,100
565.38373,101
565.42224,93
565.46075,105
565.49921,101
565.53772,92
565.57623,92
565.61475,89
565.6532,100
565.69171,92
565.73022,99
565.76874,94
565.80719,98
565.8457,104
565.88422,101
565.92267,95
565.96118,99
565.99963,103
566.03815,102
566.07666,94
566.11511,103
566.15363,109
566.19208,99
566.23059,104
566.26904,94
566.30756,104
566.34601,98
566.38446,94
566.42297,104
566.46143,106
566.49994,91
566.53839,97
566.57684,94
566.61536,98
566.65381,96
566.69226,100
566.73071,101
566.76923,106
566.80768,105
566.84613,105
566.88458,94
566.9231,95
566.96155,93
567,97
567.03845,93
567.0769,95
567.11536,98
567.15381,104
567.19226,99
567.23071,97
567.26917,93
567.30768,99
567.34613,104
567.38452,91
567.42297,97
567.46143,94
567.49988,106
567.53833,106
567.57678,100
567.61523,95
567.65369,95
567.69214,97
567.73059,97
567.76898,102
567.80743,105
567.84589,110
567.88434,91
567.92273,96
567.96118,97
567.99963,97
568.03809,101
568.07648,94
568.11493,99
568.15338,99
568.19177,106
568.23022,94
568.26862,94
568.30707,100
568.34546,101
568.38391,89
568.42236,95
568.46075,110
568.49921,100
568.5376,95
568.57599,102
568.61444,104
568.65283,104
568.69128,99
568.72968,114
568.76807,106
568.80652,101
568.84491,99
568.8833,107
568.92175,97
568.96014,102
568.99854,98
569.03699,97
569.07538,94
569.11377,98
569.15216,98
569.19055,89
569.22894,100
569.2674,96
569.30579,105
569.34418,100
569.38257,102
569.42096,98
569.45935,103
569.49774,91
569.53613,92
569.57452,100
569.61292,100
569.65131,94
569.6897,95
569.72809,92
569.76648,97
569.80487,94
569.84326,105
569.88165,96
569.91998,107
569.95837,96
569.99677,108
570.03516,95
570.07355,98
570.11188,99
570.15027,105
570.18866,92
570.22699,94
570.26538,100
570.30377,107
570.3421,91
570.38049,99
570.41888,108
570.45721,97
570.49561,99
570.534,111
570.57233,104
570.61072,95
570.64905,99
570.68744,101
570.72577,93
570.76416,95
570.80249,99
570.84082,95
570.87921,104
570.91754,100
570.95593,94
570.99426,103
571.03259,102
571.07098,96
571.10931,93
571.14764,103
571.18597,87
571.22437,92
571.2627,90
571.30103,90
571.33936,100
571.37775,88
571.41608,97
571.45441,94
571.49274,91
571.53107,102
571.5694,96
571.60773,94
571.64606,96
571.68439,104
571.72272,96
571.76105,86
571.79938,102
571.83771,106
571.87604,91
571.91437,89
571.9527,97
571.99103,93
572.02936,94
572.06769,81
572.10602,95
572.14429,92
572.18262,83
572.22095,93
572.25928,95
572.29761,94
572.33588,91
572.37421,99
572.41254,91
572.45081,93
572.48914,85
572.52747,89
572.56573,96
572.60406,98
572.6424,89
572.68066,99
572.71899,104
572.75726,96
572.79559,98
572.83386,93
572.87219,99
572.91046,86
572.94879,94
572.98706,90
573.02539,86
573.06366,99
573.10193,91
573.14026,86
573.17853,99
573.2168,94
573.25513,91
573.2934,98
573.33167,89
573.37,93
573.40826,86
573.44653,97
573.4848,92
573.52307,92
573.5614,85
573.59967,84
573.63794,89
573.67621,92
573.71448,89
573.75275,85
573.79102,104
573.82928,91
573.86755,95
573.90582,88
573.94409,103
573.98236,91
574.02063,83
574.0589,97
574.09717,85
574.13544,95
574.17371,88
574.21198,88
574.25024,82
574.28845,87
574.32672,95
574.36499,88
574.40326,95
574.44153,93
574.47974,86
574.51801,81
574.55627,93
574.59448,85
574.63275,91
574.67102,88
574.70923,91
574.7475,87
574.78577,87
574.82397,96
574.86224,89
574.90045,96
574.93872,87
574.97693,95
575.0152,96
575.05341,91
575.09167,78
575.12988,91
575.16815,104
575.20636,98
575.24457,91
575.28284,90
575.32104,92
575.35925,89
575.39752,95
575.43573,89
575.47394,87
575.51221,87
575.55042,95
575.58862,91
575.62683,88
575.66504,93
575.70331,83
575.74152,88
575.77972,95
575.81793,84
575.85614,82
575.89435,87
575.93256,100
575.97076,80
576.00897,86
576.04718,83
576.08539,82
576.1236,87
576.1618,89
576.20001,96
576.23822,88
576.27643,80
576.31464,80
576.35284,88
576.39099,87
576.4292,90
576.46741,85
576.50562,84
576.54376,84
576.58197,88
576.62018,91
576.65839,81
576.69653,82
576.73474,72
576.77295,80
576.8111,82
576.8493,90
576.88751,81
576.92566,84
576.96387,86
577.00201,86
577.04022,90
577.07837,84
577.11658,84
577.15472,82
577.19293,87
577.23108,85
577.26923,88
577.30743,78
577.34558,79
577.38379,80
577.42194,80
577.46008,91
577.49829,95
577.53644,84
577.57458,96
577.61273,82
577.65094,83
577.68909,83
577.72723,92
577.76538,81
577.80353,79
577.84167,80
577.87988,87
577.91803,83
577.95618,85
577.99432,82
578.03247,90
578.07062,79
578.10876,85
578.14691,76
578.18506,86
578.22321,84
578.26135,88
578.2995,82
578.33765,82
578.37573,81
578.41388,82
578.45203,82
578.49017,73
578.52832,89
578.56647,82
578.60455,81
578.6427,88
578.68085,75
578.71899,75
578.75708,81
578.79523,76
578.83337,83
578.87146,81
578.90961,73
578.94769,74
578.98584,73
579.02399,78
579.06207,73
579.10022,77
579.13831,78
579.17645,84
579.21454,75
579.25269,75
579.29077,78
579.32886,81
579.367,77
579.40509,85
579.44324,84
579.48132,64
579.51941,79
579.5575,75
579.59564,82
579.63373,81
579.67181,77
579.7099,76
579.74805,82
579.78613,80
579.82422,83
579.8623,81
579.90039,82
579.93848,69
579.97662,78
580.01471,78
580.0528,72
580.09088,74
580.12897,83
580.16705,81
580.20514,80
580.24323,76
580.28131,87
580.3194,86
580.35742,86
580.39551,84
580.43359,72
580.47168,74
580.50977,82
580.54785,71
580.58594,79
580.62396,72
580.66205,73
580.70013,83
580.73822,80
580.77625,81
580.81433,73
580.85242,81
580.89044,85
580.92853,73
580.96655,75
581.00464,71
581.04272,71
581.08075,68
581.11884,82
581.15686,79
581.19495,74
581.23297,81
581.27106,88
581.30908,86
581.34717,81
581.38519,77
581.42322,80
581.4613,75
581.49933,72
581.53735,85
581.57544,66
581.61346,76
581.65149,75
581.68951,78
581.7276,73
581.76563,77
581.80365,70
581.84167,75
581.8797,76
581.91779,75
581.95581,79
581.99384,78
582.03186,74
582.06989,87
582.10791,70
582.14594,75
582.18396,78
582.22198,67
582.26001,80
582.29803,74
582.33606,78
582.37408,75
582.41211,76
582.45007,80
582.4881,69
582.52612,80
582.56415,72
582.60217,69
582.64014,85
582.67816,77
582.71619,71
582.75421,76
582.79218,72
582.8302,71
582.86823,70
582.90619,66
582.94421,72
582.98224,75
583.0202,73
583.05823,70
583.09619,73
583.13422,77
583.17218,74
583.21021,81
583.24817,65
583.28619,68
583.32416,69
583.36212,68
583.40015,77
583.43811,79
583.47614,82
583.5141,68
583.55206,83
583.59009,69
583.62805,71
583.66602,75
583.70398,75
583.742,76
583.77997,73
583.81793,72
583.8559,78
583.89386,81
583.93182,69
583.96979,70
584.00781,82
584.04578,67
584.08374,69
584.1217,68
584.15967,67
584.19763,74
584.2356,69
584.27356,76
584.31146,74
584.34943,78
584.38739,76
584.42535,68
584.46332,80
584.50128,80
584.53925,65
584.57715,75
584.61511,66
584.65308,77
584.69104,71
584.72894,72
584.76691,68
584.80487,70
584.84277,70
584.88074,77
584.9187,73
584.9566,70
584.99457,74
585.03247,70
585.07043,72
585.10834,73
585.1463,74
585.1842,65
585.22217,71
585.26007,74
585.29803,71
585.33594,80
585.3739,72
585.4118,85
585.44971,74
585.48767,64
585.52557,63
585.56348,71
585.60138,64
585.63934,71
585.67725,66
585.71515,67
585.75305,73
585.79102,70
585.82892,66
585.86682,73
585.90472,68
585.94263,66
585.98053,77
586.01843,68
586.05634,68
586.09424,68
586.13214,72
586.17004,77
586.20795,68
586.24585,65
586.28375,67
586.32166,72
586.35956,63
586.39746,64
586.4353,67
586.47321,65
586.51111,65
586.54901,65
